{
  "resourceType": "AdverseEvent",
  "meta": {
    "profile": ["https://healthsamurai.github.io/ig-ae/StructureDefinition/AdverseEvent"]
  },
  "contained": [{
      "resourceType": "Location",
      "id": "location",
      "name": "UK"
    }, {
      "resourceType": "RelatedPerson",
      "id": "relPerson",
      "patient": {
        "reference": "patient"
      },
      "extension": [{
          "url": "https://healthsamurai.github.io/ig-ae/StructureDefinition/RelatedPerson-consentToContactReporter",
          "valueBoolean": false
        }
      ],
      "name": [{
          "extension": [{
              "url": "https://healthsamurai.github.io/ig-ae/StructureDefinition/HumanName-salutation",
              "valueCodeableConcept": {
                "coding": [{
                    "code": "Mr",
                    "system": "https://healthsamurai.github.io/ig-ae/CodeSystem/humanname-salutation",
                    "display": "Monsieur"
                  }
                ],
                "text": "Mr."
              }
            }
          ],
          "family": "Flintstone",
          "given": ["Fred"]
        }
      ],
      "relationship": [{
          "text": "Father"
        }
      ],
      "telecom": [{
          "system": "phone",
          "value": "0201231234"
        }, {
          "system": "email",
          "value": "fred.Flintstone@astrazeneca.com"
        }
      ],
      "address": [{
          "extension": [{
              "url": "https://healthsamurai.github.io/ig-ae/StructureDefinition/Address-region",
              "valueCodeableConcept": {
                "coding": [{
                    "code": "01",
                    "system": "https://healthsamurai.github.io/ig-ae/CodeSystem/address-region",
                    "display": "Middlesex"
                  }
                ],
                "text": "Middlesex"
              }
            }
          ],
          "line": ["APARTMENT 3", "21 Edgware Road"],
          "city": "London",
          "postalCode": "SW14 0EG",
          "country": "UK"
        }
      ]
    }, {
      "resourceType": "Patient",
      "id": "patient",
      "extension": [{
          "url": "https://healthsamurai.github.io/ig-ae/StructureDefinition/Patient-consentToContactReporter",
          "valueBoolean": false
        }
      ],
      "name": [{
          "extension": [{
              "url": "https://healthsamurai.github.io/ig-ae/StructureDefinition/HumanName-salutation",
              "valueCodeableConcept": {
                "coding": [{
                    "code": "Mr",
                    "system": "https://healthsamurai.github.io/ig-ae/CodeSystem/humanname-salutation",
                    "display": "Monsieur"
                  }
                ],
                "text": "Mr."
              }
            }
          ],
          "family": "Flintstone",
          "given": ["Fred"]
        }
      ],
      "telecom": [{
          "system": "phone",
          "value": "0201231234"
        }, {
          "system": "email",
          "value": "fred.Flintstone@astrazeneca.com"
        }
      ],
      "address": [{
          "extension": [{
              "url": "https://healthsamurai.github.io/ig-ae/StructureDefinition/Address-region",
              "valueCodeableConcept": {
                "coding": [{
                    "code": "01",
                    "system": "https://healthsamurai.github.io/ig-ae/CodeSystem/address-region",
                    "display": "Middlesex"
                  }
                ],
                "text": "Middlesex"
              }
            }
          ],
          "line": ["APARTMENT 3", "21 Edgware Road"],
          "city": "London",
          "postalCode": "SW14 0EG",
          "country": "UK"
        }
      ],
      "identifier": [{
          "value": "patientID123231"
        }
      ]
    }, {
      "resourceType": "PractitionerRole",
      "id": "practRoleAssist",
      "code": [{
          "coding": [{
              "display": "Administrative healthcare staff",
              "code": "224608005",
              "system": "http://snomed.info/sct"
            }
          ],
          "text": "Medical office worker EN"
        }
      ],
      "practitioner": {
        "reference": "#practitionerAssist"
      }
    }, {
      "resourceType": "Practitioner",
      "id": "practitionerAssist",
      "name": [{
          "extension": [{
              "url": "https://healthsamurai.github.io/ig-ae/StructureDefinition/HumanName-salutation",
              "valueCodeableConcept": {
                "coding": [{
                    "code": "Miss",
                    "system": "https://healthsamurai.github.io/ig-ae/CodeSystem/humanname-salutation",
                    "display": "Madame"
                  }
                ],
                "text": "Miss"
              }
            }
          ],
          "given": ["Fred"],
          "family": "Flintstone"
        }
      ]
    }, {
      "resourceType": "PractitionerRole",
      "id": "practRoleHCP",
      "code": [{
          "coding": [{
              "display": "Medical doctor",
              "code": "112247003"
            }
          ],
          "text": "Doctor EN"
        }
      ],
      "specialty": [{
          "coding": [{
              "display": "Emergency Medicine",
              "code": "773568002",
              "system": "http://snomed.info/sct"
            }
          ],
          "text": "Emergency Medicine English"
        }
      ],
      "practitioner": {
        "reference": "#practitionerHCP"
      },
      "organization": {
        "reference": "#orgHCP"
      }
    }, {
      "resourceType": "Practitioner",
      "id": "practitionerHCP",
      "extension": [{
          "url": "https://healthsamurai.github.io/ig-ae/StructureDefinition/Practitioner-consentToContactPractitioner",
          "valueBoolean": false
        }
      ],
      "identifier": [{
          "value": "RELTIO-ID-123456"
        }
      ],
      "name": [{
          "extension": [{
              "url": "https://healthsamurai.github.io/ig-ae/StructureDefinition/HumanName-salutation",
              "valueCodeableConcept": {
                "coding": [{
                    "code": "Dr",
                    "system": "https://healthsamurai.github.io/ig-ae/CodeSystem/humanname-salutation",
                    "display": "Docteur"

                  }
                ],
                "text": "Dr."
              }
            }
          ],
          "given": ["Barney"],
          "family": "Rubble"
        }
      ],
      "telecom": [{
          "system": "phone",
          "value": "0201231234"
        }, {
          "system": "email",
          "value": "manjunath.muyida@astrazeneca.com"
        }, {
          "system": "other",
          "value": "ext. 456"
        }
      ],
      "address": [{
          "extension": [{
              "url": "https://healthsamurai.github.io/ig-ae/StructureDefinition/Address-region",
              "valueCodeableConcept": {
                "coding": [{
                    "code": "CHE",
                    "system": "https://healthsamurai.github.io/ig-ae/CodeSystem/address-region",
                    "display": "Cheshire"
                  }
                ],
                "text": "Cheshire"
              }
            }
          ],
          "line": ["Building 4", "1 High Street"],
          "city": "Macclesfield",
          "postalCode": "SW14 0EG",
          "country": "UK"
        }
      ]
    }, {
      "resourceType": "Organization",
      "id": "orgHCP",
      "name": "Macclesfield Hospital",
      "alias": ["Respiratory Unit"]
    }, {
      "resourceType": "PractitionerRole",
      "id": "practRoleAZEmployee",
      "code": [{
          "text": "AZ Employee"
        }
      ],
      "identifier": [{
          "value": "kcvl999"
        }
      ],
      "practitioner": {
        "reference": "#practitionerAZEmployee"
      },
      "organization": {
        "reference": "#orgAZVendor"
      }
    }, {
      "resourceType": "Practitioner",
      "id": "practitionerAZEmployee",
      "name": [{
          "given": ["Fred"],
          "family": "Flintstone"
        }
      ],
      "telecom": [{
          "system": "email",
          "value": "az.employee@astrazeneca.com"
        }
      ]
    }, {
      "resourceType": "Organization",
      "id": "orgAZVendor",
      "name": "Vendor name",
      "contact": [{
          "name": {
            "given": ["AZ"],
            "family": "Vendor"
          },
          "telecom": [{
              "system": "email",
              "value": "az.vendor@astrazeneca.com"
            }
          ]
        }
      ]
    }, {
      "resourceType": "MedicationAdministration",
      "id": "medicationAdministration",
      "effectiveDateTime": "2021-01-01T00:00:00.000Z",
      "status": "completed",
      "subject": {
        "reference": "#patient"
      },
      "medicationReference": {
        "reference": "medication"
      }
    }, {
      "resourceType": "Medication",
      "id": "medication",
      "extension": [{
          "url": "https://healthsamurai.github.io/ig-ae/StructureDefinition/Medication-marketProductType",
          "valueString": "Finished Sales Pack/Device"
        }, {
          "url": "https://healthsamurai.github.io/ig-ae/StructureDefinition/Medication-strengthUnit",
          "valueCodeableConcept": {
            "coding": [{
                "code": "mg",
                "display": "mg",
                "system": "http://unitsofmeasure.org"

              }
            ],
            "text": "mg EN"
          }
        }, {
          "url": "https://healthsamurai.github.io/ig-ae/StructureDefinition/Medication-packType",
          "valueCodeableConcept": {
            "coding": [{
                "code": "Blister",
                "display": "Blister"
              }
            ],
            "text": "Blister EN"
          }
        }, {
          "url": "https://healthsamurai.github.io/ig-ae/StructureDefinition/Medication-sampleAvailableForReturn",
          "valueBoolean": true
        }, {
          "url": "https://healthsamurai.github.io/ig-ae/StructureDefinition/Medication-quantityAvailableForReturn",
          "valueInteger": 50
        }
      ],
      "ingredient": [{
          "strength": {
            "numerator": {
              "value": 50
            },
            "denominator": {
              "value": 1
            }
          },
          "itemReference": {
            "reference": "#medication"
          }
        }
      ],
      "amount": {
        "numerator": {
          "value": 50
        },
        "denominator": {
          "value": 1
        }
      },
      "code": {
        "text": "Bydureon"
      },
      "text": {
        "div": "<div xmlns=\"http://www.w3.org/1999/xhtml\">Additional information on the PQC</div>",
        "status": "generated"
      },
      "batch": {
        "lotNumber": "lotNumberhere",
        "expirationDate": "2020-12-31"
      }
    }, {
      "resourceType": "DocumentReference",
      "id": "pdf1",
      "status": "current",
      "description": "PDFOriginalForm.pdf",
      "content": [{
          "attachment": {
            "data": "QkFTRTY0LUVOQ09ERUQtUERGLURBVEEtR09FUy1JTi1IRVJF",
            "contentType": "application/pdf"
          }
        }
      ]
    }
  ],
  "id": "PQC1",
  "extension": [{
      "url": "https://healthsamurai.github.io/ig-ae/StructureDefinition/AdverseEvent-reporterType",
      "valueString": "0"
    }, {
      "url": "https://healthsamurai.github.io/ig-ae/StructureDefinition/AdverseEvent-programNumber",
      "valueString": "prog12345"
    }, {
      "url": "https://healthsamurai.github.io/ig-ae/StructureDefinition/AdverseEvent-AZEmployeeReporter",
      "valueString": "0"
    }
  ],
  "text": {
    "div": "<div xmlns=\"http://www.w3.org/1999/xhtml\" lang=\"en-GB\" xml:lang=\"en-GB\">PQC long text description goes here</div>",
    "status": "generated"
  },
  "actuality": "actual",
  "location": {
    "reference": "#location"
  },
  "language": "en-GB",
  "date": "2020-09-10",
  "recorder": {
    "reference": "#relPerson"
  },
  "subject": {
    "reference": "patient"
  },
  "suspectEntity": [{
      "instance": {
        "reference": "#medicationAdministration"
      }
    }
  ],
  "contributor": [{
      "reference": "#practRoleAssist"
    }, {
      "reference": "#practRoleHCP"
    }, {
      "reference": "#practRoleAZEmployee"
    }
  ],
  "detected": "2020-07-21T14:50:23Z",
  "referenceDocument": [{
      "reference": "#pdf1"
    }
  ]
}
