{
  "resourceType": "Adverse Event",
  "contained": [{
      "resourceType": "Location",
      "id": "location",
      "name": "UK"
    }, {
      "resourceType": "RelatedPerson",
      "id": "relPerson",
      "extension": [{
          "url": "http://hl7.org/fhir/StructureDefinition/RelatedPerson-ConsentToContactReporter",
          "valueBoolean": false
        }
      ],
      "name": [{
          "extension": [{
              "url": "http://hl7.org/fhir/StructureDefinition/HumanName-Salutation",
              "valueCodeableConcept": {
                "coding": [{
                    "code": "Mr",
                    "display": "Monsieur"
                  }
                ],
                "text": "Mr."
              }
            }
          ],
          "family": "Flintstone",
          "given": ["Fred"]
        }
      ],
      "relationship": [{
          "text": "Father"
        }
      ],
      "telecom": [{
          "system": "phone",
          "value": "0201231234"
        }, {
          "system": "email",
          "value": "fred.Flintstone@astrazeneca.com"
        }
      ],
      "address": [{
          "extension": [{
              "url": "http://hl7.org/fhir/StructureDefinition/Address-Region",
              "valueCodeableConcept": {
                "coding": [{
                    "code": "01",
                    "display": "Middlesex"
                  }
                ],
                "text": "Middlesex"
              }
            }
          ],
          "line": ["APARTMENT 3", "21 Edgware Road"],
          "city": "London",
          "postalCode": "SW14 0EG",
          "country": "UK"
        }
      ]
    }, {
      "resourceType": "Patient",
      "id": "patient",
      "extension": [{
          "url": "http://hl7.org/fhir/StructureDefinition/Person-ConsentToContactReporter",
          "valueBoolean": false
        }, {
          "url": "http://hl7.org/fhir/StructureDefinition/Patient-PatientAge",
          "valueInteger": 35
        }, {
          "url": "http://hl7.org/fhir/StructureDefinition/Patient-AgeGroup",
          "valueCodeableConcept": {
            "coding": [{
                "code": "ADULT",
                "display": "Adulte"
              }
            ],
            "text": "Adult"
          }
        }, {
          "url": "http://hl7.org/fhir/StructureDefinition/Patient-Gender",
          "valueCodeableConcept": {
            "coding": [{
                "code": "MALE",
                "display": "Masculin"
              }
            ],
            "text": "Male"
          }
        }, {
          "url": "http://hl7.org/fhir/StructureDefinition/Patient-Ethnicity",
          "valueCodeableConcept": {
            "coding": [{
                "code": "D",
                "display": "Asiane"
              }
            ],
            "text": "Asian"
          }
        }
      ],
      "name": [{
          "extension": [{
              "url": "http://hl7.org/fhir/StructureDefinition/HumanName-Salutation",
              "valueCodeableConcept": {
                "coding": [{
                    "code": "Mr",
                    "display": "Monsieur"
                  }
                ],
                "text": "Mr."
              }
            }
          ],
          "family": "Flintstone",
          "given": ["Fred"]
        }
      ],
      "telecom": [{
          "system": "phone",
          "value": "0201231234"
        }, {
          "system": "email",
          "value": "fred.Flintstone@astrazeneca.com"
        }
      ],
      "address": [{
          "extension": [{
              "url": "http://hl7.org/fhir/StructureDefinition/Address-Region",
              "valueCodeableConcept": {
                "coding": [{
                    "code": "01",
                    "display": "Middlesex"
                  }
                ],
                "text": "Middlesex"
              }
            }
          ],
          "line": ["APARTMENT 3", "21 Edgware Road"],
          "city": "London",
          "postalCode": "SW14 0EG",
          "country": "UK"
        }
      ],
      "identifier": [{
          "value": "RELTIO-ID-123456"
        }
      ],
      "birthDate": "1980-10-19",
      "deceasedDateTime": "2020-12-31"
    }, {
      "resourceType": "PractitionerRole",
      "id": "practRoleAssist",
      "code": {
        "coding": [{
            "display": "Medical office worker locLang",
            "code": "224608005"
          }
        ],
        "text": "Medical office worker EN"
      },
      "practitioner": {
        "reference": "practitionerAssist"
      }
    }, {
      "resourceType": "Practitioner",
      "id": "practitionerAssist",
      "name": {
        "extension": [{
            "url": "http://hl7.org/fhir/StructureDefinition/HumanName-Salutation",
            "valueCodeableConcept": {
              "coding": [{
                  "code": "Miss",
                  "display": "Madame"
                }
              ],
              "text": "Miss"
            }
          }
        ],
        "given": ["Fred"],
        "family": "Flintstone"
      }
    }, {
      "resourceType": "PractitionerRole",
      "id": "practRoleHCP",
      "code": {
        "coding": [{
            "display": "Doctor local language",
            "code": "112247003"
          }
        ],
        "text": "Doctor EN"
      },
      "specialty": {
        "coding": [{
            "display": "Emergency Medicine",
            "code": "773568002"
          }
        ],
        "text": "Emergency Medicine English"
      },
      "practitioner": {
        "reference": "practitionerHCP"
      },
      "Organization": {
        "reference": "orgHCP"
      }
    }, {
      "resourceType": "Practitioner",
      "id": "practitionerHCP",
      "extension": [{
          "url": "http://hl7.org/fhir/StructureDefinition/Practitioner-ConsentToContactPractitioner",
          "valueBoolean": false
        }
      ],
      "identifier": [{
          "value": "RELTIO-ID-123456"
        }
      ],
      "name": {
        "extension": [{
            "url": "http://hl7.org/fhir/StructureDefinition/HumanName-Salutation",
            "valueCodeableConcept": {
              "coding": [{
                  "code": "Dr",
                  "display": "Docteur"
                }
              ],
              "text": "Dr."
            }
          }
        ],
        "given": ["Barney"],
        "family": "Rubble"
      },
      "telecom": [{
          "system": "phone",
          "value": "0201231234"
        }, {
          "system": "email",
          "value": "manjunath.muyida@astrazeneca.com"
        }, {
          "system": "other",
          "value": "ext. 456"
        }
      ],
      "address": [{
          "extension": [{
              "url": "http://hl7.org/fhir/StructureDefinition/Address-Region",
              "valueCodeableConcept": {
                "coding": [{
                    "code": "CHE",
                    "display": "Cheshire"
                  }
                ],
                "text": "Cheshire"
              }
            }
          ],
          "line": ["Building 4", "1 High Street"],
          "city": "Macclesfield",
          "postalCode": "SW14 0EG",
          "country": "UK"
        }
      ]
    }, {
      "resourceType": "Organization",
      "id": "orgHCP",
      "name": "Macclesfield Hospital",
      "alias": "Respiratory Unit"
    }, {
      "resourceType": "PractitionerRole",
      "id": "practRoleAZEmployee",
      "code": {
        "text": "AZ Employee"
      },
      "identifier": [{
          "value": "kcvl999"
        }
      ],
      "practitioner": {
        "reference": "practitionerAZEmployee"
      },
      "Organization": {
        "reference": "orgAZVendor"
      }
    }, {
      "resourceType": "Practitioner",
      "id": "practitionerAZEmployee",
      "name": {
        "given": ["Fred"],
        "family": "Flintstone"
      },
      "telecom": [{
          "system": "email",
          "value": "manjunath.muyida@astrazeneca.com"
        }
      ]
    }, {
      "resourceType": "Organization",
      "id": "orgAZVendor",
      "name": "Vendor name",
      "contact": [{
          "name": {
            "given": ["AZ"],
            "family": "Vendor"
          },
          "telecom": [{
              "system": "email",
              "value": "az.vendor@astrazeneca.com"
            }
          ]
        }
      ]
    }, {
      "resourceType": "Observation",
      "id": "obser-patienthistory",
      "status": "final",
      "code": {
        "coding": [{
            "code": "10164-0"
          }
        ]
      },
      "text": "My medical history is long and complex and goes here"
    }, {
      "resourceType": "Observation",
      "id": "obser-height",
      "status": "final",
      "code": {
        "coding": [{
            "code": "8302-2"
          }
        ]
      },
      "valueQuantity": {
        "value": "170",
        "unit": "cm"
      }
    }, {
      "resourceType": "Observation",
      "id": "obser-weight",
      "status": "final",
      "code": {
        "coding": [{
            "code": "29463-7"
          }
        ]
      },
      "valueQuantity": {
        "value": "75",
        "unit": "kg"
      }
    }, {
      "resourceType": "Observation",
      "id": "obser-preg",
      "status": "final",
      "code": {
        "coding": [{
            "code": "11449-6"
          }
        ]
      },
      "valueBoolean": true,
      "component": [{
          "code": "11449-6",
          "valuePeriod": {
            "start": "2020-01-01",
            "end": "2020-09-01"
          },
          "valueString": "Had 9 kids already with no issues"
        }
      ]
    }, {
      "resourceType": "Observation",
      "id": "obser-autopsy01",
      "status": "final",
      "code": {
        "coding": [{
            "code": "85699-7"
          }
        ]
      },
      "valueBoolean": true,
      "component": [{
          "code": {
            "text": "Cause of death confirmed"
          },
          "valueBoolean": false
        }
      ]
    }, {
      "resourceType": "Condition",
      "id": "resultingCond01",
      "extension": [{
          "url": "http://hl7.org/fhir/StructureDefinition/Condition-Duration",
          "valueString": "1 day"
        }, {
          "url": "http://hl7.org/fhir/StructureDefinition/Condition-Outcome",
          "valueCodeableConcept": {
            "coding": [{
                "code": "FHIR code",
                "display": "Recovered"
              }
            ],
            "text": "Recovered"
          }
        }, {
          "url": "http://hl7.org/fhir/StructureDefinition/Condition-ResultingConditionDeath",
          "valueBoolean": false
        }, {
          "url": "http://hl7.org/fhir/StructureDefinition/Condition-ResultingConditionLifeThreat",
          "valueBoolean": false
        }, {
          "url": "http://hl7.org/fhir/StructureDefinition/Condition-ResultingConditionBirthDefect",
          "valueBoolean": false
        }, {
          "url": "http://hl7.org/fhir/StructureDefinition/Condition-ResultingConditionHospitalization",
          "valueBoolean": false
        }, {
          "url": "http://hl7.org/fhir/StructureDefinition/Condition-ResultingConditionDisability",
          "valueBoolean": false
        }, {
          "url": "http://hl7.org/fhir/StructureDefinition/Condition-ResultingConditionImportantMedicalEvent",
          "valueBoolean": false
        }, {
          "url": "http://hl7.org/fhir/StructureDefinition/Condition-ResultingConditionRequiredIntervention",
          "valueBoolean": false
        }
      ],
      "identifier": [{
          "value": "cond01"
        }
      ],
      "text": "I felt sick after taking the medication",
      "subject": {
        "reference": "patient"
      },
      "encounter": {
        "reference": "encounter01"
      },
      "onsetPeriod": {
        "start": "2020-06-30",
        "end": "2020-07-05"
      },
      "stage": [{
          "assessment": [{
              "reference": "obser-autopsy01"
            }
          ]
        }
      ]
    }, {
      "resourceType": "Encounter",
      "id": "encounter01",
      "text": "Hospitalization",
      "class": "IMP",
      "status": "arrived",
      "period": {
        "start": "2020-04-30",
        "end": "2020-05-01"
      }
    }, {
      "resourceType": "Condition",
      "id": "resultingCond02",
      "extension": [{
          "url": "http://hl7.org/fhir/StructureDefinition/Condition-Duration",
          "valueString": "1 day"
        }, {
          "url": "http://hl7.org/fhir/StructureDefinition/Condition-Outcome",
          "valueCodeableConcept": {
            "coding": [{
                "code": "FHIR code",
                "display": "Recovered"
              }
            ],
            "text": "Recovered"
          }
        }, {
          "url": "http://hl7.org/fhir/StructureDefinition/Condition-ResultingConditionDeath",
          "valueBoolean": false
        }, {
          "url": "http://hl7.org/fhir/StructureDefinition/Condition-ResultingConditionLifeThreat",
          "valueBoolean": false
        }, {
          "url": "http://hl7.org/fhir/StructureDefinition/Condition-ResultingConditionBirthDefect",
          "valueBoolean": false
        }, {
          "url": "http://hl7.org/fhir/StructureDefinition/Condition-ResultingConditionHospitalization",
          "valueBoolean": false
        }, {
          "url": "http://hl7.org/fhir/StructureDefinition/Condition-ResultingConditionDisability",
          "valueBoolean": false
        }, {
          "url": "http://hl7.org/fhir/StructureDefinition/Condition-ResultingConditionImportantMedicalEvent",
          "valueBoolean": false
        }, {
          "url": "http://hl7.org/fhir/StructureDefinition/Condition-ResultingConditionRequiredIntervention",
          "valueBoolean": false
        }
      ],
      "identifier": [{
          "value": "cond02"
        }
      ],
      "text": "Headache",
      "subject": {
        "reference": "patient"
      },
      "encounter": {
        "reference": "encounter02"
      },
      "onsetPeriod": {
        "start": "2020-06-30",
        "end": "2020-07-05"
      }
    }, {
      "resourceType": "Encounter",
      "id": "encounter02",
      "text": "Hospitalization",
      "class": "IMP",
      "status": "arrived",
      "period": {
        "start": "2020-04-30",
        "end": "2020-05-01"
      }
    }, {
      "resourceType": "medicationAdministration",
      "id": "medicationAdministration01",
      "extension": [{
          "url": "http://hl7.org/fhir/StructureDefinition/MedicationAdministration-ActionTaken",
          "valueCodeableConcept": {
            "coding": [{
                "code": "3",
                "display": "Increased"
              }
            ],
            "text": "Increased"
          }
        }, {
          "url": "http://hl7.org/fhir/StructureDefinition/MedicationAdministration-OperatorDevice",
          "valueCodeableConcept": {
            "coding": [{
                "code": "PATIENT",
                "display": "Patiente"
              }
            ],
            "text": "Patient"
          }
        }, {
          "url": "http://hl7.org/fhir/StructureDefinition/MedicationAdministration-OperatorDeviceOther",
          "valueString": "Nurse"
        }, {
          "url": "http://hl7.org/fhir/StructureDefinition/MedicationAdministration-ProductType",
          "valueString": "D"
        }
      ],
      "medicationReference": {
        "reference": "medication01"
      },
      "text": "Why is the product being taken",
      "dosage": {
        "extension": [{
            "url": "http://hl7.org/fhir/StructureDefinition/Dosage-Unit",
            "valueCodeableConcept": {
              "coding": [{
                  "code": "g",
                  "display": "Grammes"
                }
              ],
              "text": "Grams"
            }
          }, {
            "url": "http://hl7.org/fhir/StructureDefinition/Dosage-Frequency",
            "valueCodeableConcept": {
              "coding": [{
                  "code": "DAILY",
                  "display": "Daily"
                }
              ],
              "text": "Daily"
            }
          }
        ],
        "route": {
          "coding": [{
              "code": "46713006",
              "display": "How is the product being taken local language"
            }
          ],
          "text": "How taken english version"
        },
        "dose": {
          "value": 1
        }
      },
      "effectivePeriod": {
        "start": "2019-12-31",
        "end": "2020-12-31"
      },
      "device": [{
          "reference": "device01"
        }
      ]
    }, {
      "resourceType": "Medication",
      "id": "medication01",
      "code": {
        "text": "Bydureon"
      },
      "batch": {
        "lotNumber": "lotNumberhere",
        "expirationDate": "2020-12-31"
      }
    }, {
      "resourceType": "Device",
      "id": "device01",
      "udiCarrier": [{
          "deviceIdentifier": "UDI number entered"
        }
      ]
    }, {
      "resourceType": "medicationAdministration",
      "id": "medicationAdministration02",
      "extension": [{
          "url": "http://hl7.org/fhir/StructureDefinition/MedicationAdministration-ActionTaken",
          "valueCodeableConcept": {
            "coding": [{
                "code": "3",
                "display": "Increased"
              }
            ],
            "text": "Increased"
          }
        }, {
          "url": "http://hl7.org/fhir/StructureDefinition/MedicationAdministration-OperatorDevice",
          "valueCodeableConcept": {
            "coding": [{
                "code": "PATIENT",
                "display": "Patiente"
              }
            ],
            "text": "Patient"
          }
        }, {
          "url": "http://hl7.org/fhir/StructureDefinition/MedicationAdministration-OperatorDeviceOther",
          "valueString": "Nurse"
        }, {
          "url": "http://hl7.org/fhir/StructureDefinition/MedicationAdministration-ProductType",
          "valueString": "D"
        }
      ],
      "medicationReference": {
        "reference": "medication02"
      },
      "text": "Why is the product being taken",
      "dosage": {
        "extension": [{
            "url": "http://hl7.org/fhir/StructureDefinition/Dosage-Unit",
            "valueCodeableConcept": {
              "coding": [{
                  "code": "g",
                  "display": "Grammes"
                }
              ],
              "text": "Grams"
            }
          }, {
            "url": "http://hl7.org/fhir/StructureDefinition/Dosage-Frequency",
            "valueCodeableConcept": {
              "coding": [{
                  "code": "DAILY",
                  "display": "Daily"
                }
              ],
              "text": "Daily"
            }
          }
        ],
        "route": {
          "text": "How is the product being taken EN",
          "coding": [{
              "code": "46713006",
              "display": "How is the product being taken local language"
            }
          ],
          "text": "How taken english version"
        },
        "dose": {
          "value": 1
        }
      },
      "effectivePeriod": {
        "start": "2019-12-31",
        "end": "2020-12-31"
      },
      "device": [{
          "reference": "device02"
        }
      ]
    }, {
      "resourceType": "Medication",
      "id": "medication02",
      "code": {
        "text": "Asprin"
      },
      "batch": {
        "lotNumber": "lotNumberhere",
        "expirationDate": "2020-12-31"
      }
    }, {
      "resourceType": "Device",
      "id": "device02",
      "udiCarrier": [{
          "deviceIdentifier": "UDI number entered"
        }
      ]
    }, {
      "resourceType": "DocumentReference",
      "id": "pdf1",
      "status": "current",
      "description": "PDFOriginalForm.pdf",
      "content": [{
          "attachment": {
            "data": "BASE64-ENCODED-PDF-DATA-GOES-IN-HERE"
          }
        }
      ]
    }
  ],
  "id": "AE1",
  "extension": [{
      "url": "http://hl7.org/fhir/StructureDefinition/AdverseEvent-ReporterType",
      "valueString": "0"
    }, {
      "url": "http://hl7.org/fhir/StructureDefinition/AdverseEvent-ProgramNumber",
      "valueString": "prog12345"
    }, {
      "url": "http://hl7.org/fhir/StructureDefinition/AdverseEvent-LateReason",
      "valueString": "Had a day off so was late reporting this"
    }, {
      "url": "http://hl7.org/fhir/StructureDefinition/AdverseEvent-LocalReferenceNumber",
      "valueString": "locrefnum1"
    }, {
      "url": "http://hl7.org/fhir/StructureDefinition/AdverseEvent-SourceType",
      "valueString": "sourcetype"
    }, {
      "url": "http://hl7.org/fhir/StructureDefinition/AdverseEvent-AZEmployeeReporter",
      "valueString": "0"
    }, {
      "url": "http://hl7.org/fhir/StructureDefinition/AdverseEvent-SurveyStatus",
      "valueString": "survey status"
    }
  ],
  "text": {
    "div": "Text message",
    "status": "generated"
  },
  "actuality": "actual",
  "location": {
    "reference": "location"
  },
  "language": "en-GB",
  "recordedDate": "2020-07-21T14:50:23Z",
  "recorder": {
    "reference": "relPerson"
  },
  "subject": {
    "reference": "patient"
  },
  "contributor": [{
      "reference": "practRoleAssist"
    }, {
      "reference": "practRoleHCP"
    }, {
      "reference": "practRoleAZEmployee"
    }
  ],
  "detected": "2020-07-21T14:50:23Z",
  "resultingCondition": [{
      "reference": "resultingCond01"
    }, {
      "reference": "resultingCond02"
    }
  ],
  "suspectEntity": [{
      "instance": {
        "reference": "medicationAdministration01"
      },
      "causality": [{
          "extension": [{
              "url": "http://hl7.org/fhir/StructureDefinition/Causality-causalDrug",
              "valueString": "Y"
            }, {
              "url": "http://hl7.org/fhir/StructureDefinition/Causality-positiveDechallenge",
              "valueString": "Y"
            }, {
              "url": "http://hl7.org/fhir/StructureDefinition/Causality-Rechallenge",
              "valueString": "Y"
            }, {
              "url": "http://hl7.org/fhir/StructureDefinition/Causality-positiveRechallenge",
              "valueString": "Y"
            }
          ],
          "assessment": {
            "text": "cond01"
          }
        }
      ]
    }, {
      "instance": {
        "reference": "medicationAdministration02"
      }
    }
  ],
  "subjectMedicalHistory": [{
      "reference": "obser-height"
    }, {
      "reference": "obser-weight"
    }, {
      "reference": "obser-preg"
    }, {
      "reference": "obser-patienthistory"
    }
  ],
  "referenceDocument": [{
      "reference": "pdf1"
    }
  ]
}
